Trial	Beat	Sentence	Sentence_extraction	Congruency	Probe	Probe_clause	Response	Accuracy	RT
1	binary	['The', 'dean', 'that', 'called', 'the', 'boy', 'had a', 'voice', 'full of', 'anger']	subject	incongruent	The boy had a voice full of anger?	main_clause	n	1	3.476402056054212
2	binary	['The', 'dancer', 'that', 'liked', 'the', 'guy', 'was a', 'chef', 'in the', 'city']	subject	congruent	The dancer liked the guy?	relative_clause	y	1	3.072186100005638
3	binary	['The', 'wine', 'that was', 'fancy', 'was', 'kept', 'in the', 'cellar', 'for', 'nearly', 'ten', 'years', 'and five', 'months']	assorted	other	The wine was bad?	other	n	1	1.2051590390037745
4	binary	['The', 'owl', 'that', 'scared', 'the', 'bat', 'made a', 'loop', 'in the', 'air']	subject	congruent	The bat made a loop?	main_clause	y	0	1.9879108339664526
5	binary	['The', 'hat', 'that', 'matched', 'the', 'skirt', 'had a', 'bow', 'in the', 'back']	subject	congruent	The hat matched the skirt?	relative_clause	y	1	1.2889302019611932
6	ternary	['The', 'cop', 'that the', 'spy', 'met', 'wrote', 'a', 'book', 'about', 'the', 'case']	object	incongruent	The cop met the spy?	relative_clause	n	1	8.561897099018097
7	binary	['The', 'bike', 'that was', 'yellow', 'and', 'shiny', 'belonged', 'to', 'the', 'boy', 'with the', 'hat']	assorted	other	The bike was shiny?	other	y	1	2.4195446230005473
8	ternary	['The', 'dad', 'that the', 'chef', 'knew', 'had', 'a', 'son', 'with', 'a', 'limp']	object	congruent	The dad knew the chef?	relative_clause	y	0	1.6351181389763951
9	ternary	['The', 'guest', 'that the', 'host', 'kissed', 'brought', 'a', 'cake', 'to', 'the', 'party']	object	incongruent	The guest brought a cake?	main_clause	n	0	3.9698070949525572
10	binary	['The', 'cat', 'chased the', 'bird', 'but', 'it', 'flew', 'away', 'into the', 'sunset']	assorted	other	The cat caught the bird?	other	n	1	1.8560420010471717
11	binary	['The', 'bloke', 'that', 'helped', 'the', 'mum', 'gave a', 'gift', 'to say', 'thanks']	subject	congruent	The mum helped the bloke?	relative_clause	n	1	3.423064691014588
12	binary	['The', 'dog', 'that', 'barked', 'is very', 'big', 'and very', 'friendly', 'but', 'doesn’t', 'like', 'cats']	assorted	other	The dog is very fluffy?	other	n	1	1.7216628059977666
13	binary	['The', 'truck', 'that', 'bumped', 'the', 'car', 'had a', 'man', 'at the', 'wheel']	subject	congruent	The truck bumped the car?	relative_clause	y	1	1.6021993489703164
14	binary	['The', 'job', 'that was', 'given', 'was', 'different', 'to', 'what', 'she', 'expected']	assorted	other	The job was unexpected?	other	y	1	2.47442783403676
15	binary	['The', 'concert', 'started', 'later', 'than', 'what', 'the', 'lady', 'told the', 'traveler']	assorted	other	The concert started early?	other	n	1	1.686843753035646
16	ternary	['The', 'bug', 'that the', 'ant', 'attacked', 'was', 'as', 'big', 'as', 'a', 'coin']	object	incongruent	The ant attacked the bug?	relative_clause	n	0	3.103828415973112
17	ternary	['The', 'priest', 'that the', 'nun', 'thanked', 'left', 'the', 'church', 'in', 'a', 'hurry']	object	incongruent	The priest thanked the nun?	relative_clause	y	0	4.1897461139597
18	binary	['The', 'thief', 'that', 'saw', 'the', 'guard', 'had a', 'gun', 'in his', 'holster']	subject	congruent	The guard saw the thief?	relative_clause	n	1	1.3040591159951873
19	binary	['The', 'girl', 'kicked the', 'ball', 'into the', 'window', 'but it', 'did', 'not', 'break']	assorted	other	The girl kicked the ball?	other	y	1	1.153963034041226
20	binary	['The', 'man', 'was very', 'hungry', 'after the', 'meeting', 'so', 'had', 'lunch', 'early']	assorted	other	The man was hungry?	other	y	1	1.0364012920181267
21	binary	['The', 'guy', 'that', 'thanked', 'the', 'judge', 'left the', 'room', 'with a', 'smile']	subject	incongruent	The guy thanked the judge?	relative_clause	y	1	3.852746051037684
22	ternary	['The', 'boss', 'that the', 'clerk', 'mocked', 'had', 'a', 'crush', 'on', 'the', 'intern']	object	congruent	The boss mocked the clerk?	relative_clause	n	1	1.9561782639939338
23	ternary	['The', 'man', 'that the', 'nurse', 'phoned', 'left', 'his', 'pills', 'at', 'the', 'office']	object	congruent	The nurse phoned the man?	relative_clause	y	1	0.7710265810019337
24	ternary	['The', 'boat', 'that the', 'yacht', 'chased', 'made', 'a', 'turn', 'at', 'the', 'boathouse']	object	congruent	The yacht chased the boat?	relative_clause	n	0	3.3553974159876816
25	ternary	['The', 'whale', 'that the', 'shark', 'bit', 'won', 'the', 'fight', 'in', 'the', 'end']	object	incongruent	The shark bit the whale?	relative_clause	d	0	2.8895582490367815
26	binary	['The', 'desk', 'was', 'new', 'but', 'dusty', 'and', 'covered', 'with old', 'books']	assorted	other	The desk was new?	other	y	1	1.4351186479907483
27	binary	['The', 'prince', 'that', 'helped', 'the', 'girl', 'had a', 'head', 'of blonde', 'hair']	subject	incongruent	The prince helped the girl?	relative_clause	y	1	2.4021270579542033
28	ternary	['The', 'maid', 'that the', 'chef', 'loved', 'quit', 'the', 'job', 'at', 'the', 'house']	object	congruent	The chef quit the job?	main_clause	n	1	2.138201082008891
29	binary	['The', 'crook', 'that', 'warned', 'the', 'thief', 'fled the', 'town', 'the next', 'morning']	subject	incongruent	The thief fled the town?	main_clause	n	1	3.888754350016825
30	ternary	['The', 'nun', 'that the', 'monk', 'blessed', 'lit', 'a', 'candle', 'on', 'the', 'table']	object	congruent	The monk blessed the nun?	relative_clause	y	1	1.3840429309639148
31	binary	['The', 'cup', 'was', 'made', 'from green', 'plastic', 'and was', 'filled', 'with', 'juice']	assorted	other	The cup was full of green juice?	other	y	0	0.6703279539942741
32	ternary	['The', 'kid', 'that the', 'dad', 'followed', 'had', 'some', 'mud', 'on', 'his', 'shoes']	object	incongruent	The dad had some mud on his shoes?	main_clause	n	1	1.1049559729872271
33	ternary	['The', 'bum', 'that the', 'cop', 'scared', 'crossed', 'the', 'street', 'at', 'the', 'light']	object	congruent	The bum crossed the street?	main_clause	y	1	0.820074804010801
34	binary	['The', 'tradie', 'that', 'thanked', 'the', 'man', 'left his', 'wallet', 'in the', 'car']	subject	congruent	The man left his wallet?	main_clause	y	0	9.111353227985092
35	ternary	['The', 'girl', 'that the', 'nerd', 'thanked', 'broke', 'the', 'vase', 'with', 'the', 'flowers']	object	congruent	The girl broke the vase?	main_clause	y	1	0.8701970009715296
36	binary	['The', 'fish', 'was', 'caught', 'by the', 'girl', 'on the', 'boat', 'on a', 'Friday']	assorted	other	The fish was caught by the boy?	other	n	1	2.2378239490208216
37	binary	['The', 'friend', 'that', 'teased', 'the', 'bride', 'told a', 'joke', 'about the', 'past']	subject	congruent	The friend told a joke?	main_clause	y	1	1.2185133500024676
38	ternary	['The', 'thug', 'that the', 'man', 'saw', 'had', 'a', 'hat', 'on', 'his', 'head']	object	congruent	The man had a hat on his head?	main_clause	n	1	1.8531639259890653
39	binary	['The', 'man', 'who was', 'short', 'gave his', 'wife', 'some red', 'candles', 'for her', 'birthday']	assorted	other	The man was tall?	other	n	1	1.2540367069886997
40	binary	['The', 'ring', 'that', 'was', 'sadly', 'lost', 'was', 'found', 'by the', 'fat', 'and', 'very', 'happy', 'priest']	assorted	other	The priest was sad?	other	n	1	1.8714779760339297
41	binary	['The', 'groom', 'that', 'charmed', 'the', 'aunt', 'raised a', 'toast', 'to the', 'parents']	subject	incongruent	The groom charmed the aunt?	relative_clause	y	1	3.271666420972906
42	binary	['The', 'dean', 'that', 'heard', 'the', 'guard', 'made a', 'call', 'about the', 'matter']	subject	congruent	The guard heard the dean?	relative_clause	n	1	3.240364572033286
43	ternary	['The', 'niece', 'that the', 'aunt', 'kissed', 'sang', 'a', 'song', 'for', 'the', 'guests']	object	incongruent	The aunt sang a song?	main_clause	y	0	3.3885548100224696
44	binary	['The', 'desk', 'that', 'scratched', 'the', 'bed', 'was too', 'old', 'to be', 'moved']	subject	incongruent	The bed scratched the desk?	relative_clause	y	0	2.054346588032786
45	ternary	['The', 'sailor', 'that the', 'banker', 'pushed', 'hurt', 'his', 'foot', 'in', 'the', 'brawl']	object	incongruent	The sailor hurt his foot?	main_clause	n	0	0.7879553699749522
46	ternary	['The', 'nurse', 'that the', 'coach', 'blamed', 'checked', 'the', 'file', 'of', 'the', 'gymnast']	object	congruent	The nurse checked the file?	main_clause	y	1	0.917852747021243
47	binary	['The', 'fruit', 'that', 'squashed', 'the', 'cake', 'made a', 'mess', 'in the', 'bag']	subject	incongruent	The cake squashed the fruit?	relative_clause	n	1	3.174745848053135
48	binary	['The', 'apples', 'that', 'the', 'couple', 'bought', 'at the', 'market', 'were', 'red']	assorted	other	The couple bought some apples?	other	y	1	1.5680147610255517
49	ternary	['The', 'fox', 'that the', 'wolf', 'chased', 'hurt', 'its', 'paws', 'on', 'the', 'way']	object	congruent	The wolf hurt its paws?	main_clause	n	1	1.7351673109806143
50	binary	['The', 'scout', 'that', 'punched', 'the', 'coach', 'had a', 'fight', 'with a', 'manager']	subject	incongruent	The scout had a fight?	main_clause	d	0	2.756688283989206
51	binary	['The', 'king', 'that', 'pleased', 'the', 'guest', 'poured the', 'wine', 'from the', 'jug']	subject	incongruent	The king poured the wine?	main_clause	y	1	3.8703253399580717
52	binary	['The', 'car', 'that', 'pulled', 'the', 'truck', 'had a', 'scratch', 'on the', 'door']	subject	congruent	The truck had a scratch?	main_clause	n	1	1.7045490749878809
53	binary	['The', 'cook', 'that', 'hugged', 'the', 'maid', 'had a', 'tear', 'on her', 'cheek']	subject	congruent	The cook had a son?	main_clause	n	0	2.3391955620027147
54	binary	['The', 'colour', 'of the', 'house', 'was', 'brighter', 'than the', 'men', 'who travelled', 'expected']	assorted	other	The men travelled?	other	y	1	1.6714677889831364
55	binary	['The', 'box', 'was', 'made', 'from', 'wood', 'and was', 'full', 'of', 'things', 'that', 'shined']	assorted	other	The box was full of things?	other	y	1	1.3377432099659927
56	ternary	['The', 'chief', 'that the', 'girl', 'thanked', 'was', 'too', 'late', 'for', 'the', 'bus']	object	congruent	The chief thanked the girl?	relative_clause	y	0	1.2884568799636327
57	binary	['The', 'girl', 'and the', 'boy', 'that', 'owned', 'the', 'horse', 'had', 'mud', 'on their', 'clothes']	assorted	other	The horse was muddy?	other	n	1	1.4228102099732496
58	binary	['The', 'piano', 'was well', 'played', 'by', 'the', 'old', 'lady', 'but', 'it', 'was', 'not', 'in', 'tune']	assorted	other	The piano was well played?	other	y	1	3.0220413699862547
59	binary	['The', 'book', 'that the', 'lady', 'with a', 'tattoo', 'had', 'written', 'was her', 'best', 'book', 'yet']	assorted	other	The lady wrote a book?	other	y	1	0.9057112439768389
60	binary	['The', 'dessert', 'was', 'served', 'with', 'custard', 'and', 'fruit', 'then', 'there', 'was', 'coffee']	assorted	other	The coffee was after dessert?	other	y	1	1.9720086659654044
61	binary	['The', 'cat', 'that', 'fought', 'the', 'dog', 'licked its', 'wounds', 'in the', 'corner']	subject	incongruent	The cat licked its wounds?	main_clause	y	1	2.754971775051672
62	binary	['The', 'hat', 'that was', 'worn', 'by the', 'boy', 'with a', 'jacket', 'was too', 'small', 'for the', 'man']	assorted	other	The hat was too small?	other	y	1	1.5706079039955512
63	binary	['The', 'clerk', 'that', 'liked', 'the', 'boss', 'had a', 'desk', 'by the', 'window']	subject	congruent	The clerk had a desk by the window?	main_clause	y	1	2.6729941490339115
64	binary	['The', 'girl', 'on', 'the', 'school', 'trip', 'saw a', 'frog', 'and', 'later', 'she', 'saw', 'a', 'mouse']	assorted	other	The girl saw a mouse first?	other	n	1	2.8563767279847525
65	binary	['The', 'boss', 'was', 'happy', 'to', 'see', 'the', 'work', 'that', 'the', 'two', 'girls', 'had', 'done']	assorted	other	The boss was happy?	other	y	1	0.8371728350175545
66	ternary	['The', 'knight', 'that the', 'king', 'helped', 'sent', 'a', 'gift', 'from', 'his', 'castle']	object	incongruent	The knight helped the king?	relative_clause	d	0	10.459151227027178
67	binary	['The', 'car', 'that was', 'new', 'had', 'just', 'been', 'cleaned', 'by', 'the', 'old', 'lady']	assorted	other	The car was old?	other	n	1	1.338421712978743
68	ternary	['The', 'count', 'that the', 'queen', 'knew', 'owned', 'a', 'castle', 'by', 'the', 'lake']	object	incongruent	The queen owned a castle?	main_clause	n	1	4.2732028610189445
69	ternary	['The', 'boy', 'that the', 'girl', 'helped', 'got', 'an', 'A', 'on', 'the', 'test']	object	incongruent	The boy got an A?	main_clause	n	0	2.237685265019536
70	binary	['The', 'rod', 'that', 'bent', 'the', 'pipe', 'had a', 'hole', 'in the', 'middle']	subject	incongruent	The pipe had a hole?	main_clause	y	0	2.3065594019717537
71	ternary	['The', 'shelf', 'that the', 'piano', 'bumped', 'had', 'some', 'dust', 'on', 'its', 'top']	object	incongruent	The piano bumped the shelf?	relative_clause	n	0	2.005598003976047
72	binary	['The', 'priest', 'that', 'paid', 'the', 'cook', 'signed the', 'check', 'at the', 'bank']	subject	incongruent	The cook paid the priest?	relative_clause	d	0	2.819554661982693
73	binary	['The', 'boy', 'who', 'had', 'a', 'birthday', 'called', 'his', 'best', 'friend', 'for a', 'chat']	assorted	other	The friend called the boy?	other	n	1	2.472304596041795
