Trial	Beat	Sentence	Sentence_extraction	Congruency	Probe	Probe_clause	Response	Accuracy	RT
1	binary	['The', 'job', 'that was', 'given', 'was', 'different', 'to', 'what', 'she', 'expected']	assorted	other	The job was unexpected?	other	n	0	2.459458789000564
2	ternary	['The', 'fruit', 'that the', 'cake', 'squashed', 'made', 'a', 'mess', 'in', 'the', 'bag']	object	incongruent	The cake squashed the fruit?	relative_clause	y	1	2.225318316999619
3	binary	['The', 'thug', 'that', 'saw', 'the', 'man', 'had a', 'hat', 'on his', 'head']	subject	congruent	The man saw the thug?	relative_clause	n	1	2.2427987939991
4	ternary	['The', 'king', 'that the', 'guest', 'pleased', 'poured', 'the', 'wine', 'from', 'the', 'jug']	object	congruent	The king poured the wine?	main_clause	n	0	2.192320228999961
5	binary	['The', 'wine', 'that was', 'fancy', 'was', 'kept', 'in the', 'cellar', 'for', 'nearly', 'ten', 'years', 'and five', 'months']	assorted	other	The wine was bad?	other	n	1	1.6406612169994332
6	binary	['The', 'colour', 'of the', 'house', 'was', 'brighter', 'than the', 'men', 'who travelled', 'expected']	assorted	other	The men were colourfully dressed?	other	n	1	4.297451792001084
7	ternary	['The', 'bloke', 'that the', 'mum', 'helped', 'gave', 'a', 'gift', 'to', 'say', 'thanks']	object	incongruent	The bloke gave a gift?	main_clause	y	1	3.5127083049992507
8	binary	['The', 'boss', 'was', 'happy', 'to', 'see', 'the', 'work', 'that', 'the', 'two', 'girls', 'had', 'done']	assorted	other	The boss was happy?	other	y	1	0.9058188130002236
9	binary	['The', 'cat', 'chased the', 'bird', 'but', 'it', 'flew', 'away', 'into the', 'sunset']	assorted	other	The cat caught the bird?	other	n	1	1.306941649001601
10	binary	['The', 'friend', 'that', 'teased', 'the', 'bride', 'told a', 'joke', 'about the', 'past']	subject	incongruent	The bride told a joke?	main_clause	n	1	1.888551975000155
11	binary	['The', 'bike', 'that was', 'yellow', 'and', 'shiny', 'belonged', 'to', 'the', 'boy', 'with the', 'hat']	assorted	other	The bike was shiny?	other	y	1	1.3562537309990148
12	binary	['The', 'guest', 'that', 'kissed', 'the', 'host', 'brought a', 'cake', 'to the', 'party']	subject	congruent	The host brought a cake?	main_clause	n	1	2.292268596998838
13	binary	['The', 'girl', 'kicked the', 'ball', 'into the', 'window', 'but it', 'did', 'not', 'break']	assorted	other	The girl broke the window?	other	n	1	1.0396534640003665
14	ternary	['The', 'kid', 'that the', 'dad', 'followed', 'had', 'some', 'mud', 'on', 'his', 'shoes']	object	incongruent	The kid followed the dad?	relative_clause	n	1	2.6438530670002365
15	binary	['The', 'fish', 'was', 'caught', 'by the', 'girl', 'on the', 'boat', 'on a', 'Friday']	assorted	other	The fish was caught by the girl?	other	y	1	1.857594312999936
16	binary	['The', 'box', 'was', 'made', 'from', 'wood', 'and was', 'full', 'of', 'things', 'that', 'shined']	assorted	other	The box was shiny?	other	n	1	1.3901178569994954
17	binary	['The', 'fox', 'that', 'chased', 'the', 'wolf', 'hurt its', 'paws', 'on the', 'way']	subject	incongruent	The fox hurt its paws?	main_clause	y	1	0.972265806998621
18	binary	['The', 'boy', 'that', 'helped', 'the', 'girl', 'got an', 'A', 'on the', 'test']	subject	incongruent	The boy helped the girl?	relative_clause	y	1	1.491075293999529
19	binary	['The', 'thief', 'that', 'saw', 'the', 'guard', 'had a', 'gun', 'in his', 'holster']	subject	incongruent	The guard saw the thief?	relative_clause	n	1	2.8095501299994794
20	ternary	['The', 'truck', 'that the', 'car', 'bumped', 'had', 'a', 'man', 'at', 'the', 'wheel']	object	incongruent	The truck had a man at the wheel?	main_clause	y	1	1.2731196330005332
21	ternary	['The', 'rod', 'that the', 'pipe', 'bent', 'had', 'a', 'hole', 'in', 'the', 'middle']	object	congruent	The rod bent the pipe?	relative_clause	n	1	3.144999187999929
22	ternary	['The', 'nun', 'that the', 'monk', 'blessed', 'lit', 'a', 'candle', 'on', 'the', 'table']	object	incongruent	The monk blessed the nun?	relative_clause	y	1	2.943973384999481
23	binary	['The', 'car', 'that was', 'new', 'had', 'just', 'been', 'cleaned', 'by', 'the', 'old', 'lady']	assorted	other	The car was old?	other	n	1	1.5737595000009605
24	binary	['The', 'cup', 'was', 'made', 'from green', 'plastic', 'and was', 'filled', 'with', 'juice']	assorted	other	The cup was made from plastic?	other	y	1	1.3224044959988532
25	binary	['The', 'scout', 'that', 'punched', 'the', 'coach', 'had a', 'fight', 'with a', 'manager']	subject	congruent	The scout punched the coach?	relative_clause	y	1	1.557281093999336
26	binary	['The', 'tradie', 'that', 'thanked', 'the', 'man', 'left his', 'wallet', 'in the', 'car']	subject	incongruent	The man left his wallet?	main_clause	n	1	1.1406451819984795
27	binary	['The', 'bug', 'that', 'attacked', 'the', 'ant', 'was as', 'big', 'as a', 'coin']	subject	congruent	The bug attacked the ant?	relative_clause	y	1	1.3066281279989198
28	binary	['The', 'concert', 'started', 'later', 'than', 'what', 'the', 'lady', 'told the', 'traveler']	assorted	other	The concert started early?	other	n	1	1.691702971000268
29	binary	['The', 'count', 'that', 'knew', 'the', 'queen', 'owned a', 'castle', 'by the', 'lake']	subject	incongruent	The count knew the queen?	relative_clause	y	1	0.9055253869992157
30	binary	['The', 'desk', 'was', 'new', 'but', 'dusty', 'and', 'covered', 'with old', 'books']	assorted	other	The desk was new?	other	y	1	1.0391767470009654
31	binary	['The', 'dancer', 'that', 'liked', 'the', 'guy', 'was a', 'chef', 'in the', 'city']	subject	congruent	The dancer liked the guy?	relative_clause	y	1	1.355736003999482
32	ternary	['The', 'prince', 'that the', 'girl', 'helped', 'had', 'a', 'head', 'of', 'blonde', 'hair']	object	congruent	The prince helped the girl?	relative_clause	n	1	1.924662723999063
33	ternary	['The', 'desk', 'that the', 'bed', 'scratched', 'was', 'too', 'old', 'to', 'be', 'moved']	object	congruent	The bed scratched the desk?	relative_clause	y	1	3.1781264809997083
34	ternary	['The', 'car', 'that the', 'truck', 'pulled', 'had', 'a', 'scratch', 'on', 'the', 'door']	object	congruent	The car had a scratch?	main_clause	y	1	1.072072307999406
35	ternary	['The', 'hat', 'that the', 'skirt', 'matched', 'had', 'a', 'bow', 'in', 'the', 'back']	object	congruent	The skirt had a bow?	main_clause	n	1	1.3229236229999515
36	ternary	['The', 'bum', 'that the', 'cop', 'scared', 'crossed', 'the', 'street', 'at', 'the', 'light']	object	congruent	The cop crossed the street?	main_clause	n	1	1.2228942950005148
37	binary	['The', 'apples', 'that', 'the', 'couple', 'bought', 'at the', 'market', 'were', 'red']	assorted	other	The couple bought green apples?	other	n	1	1.2728668340005242
38	binary	['The', 'dog', 'that', 'barked', 'is very', 'big', 'and very', 'friendly', 'but', 'doesn’t', 'like', 'cats']	assorted	other	The dog is very fluffy?	other	n	1	1.1556584850004583
39	ternary	['The', 'man', 'that the', 'nurse', 'phoned', 'left', 'his', 'pills', 'at', 'the', 'office']	object	incongruent	The man phoned the nurse?	relative_clause	n	1	2.927728444001332
40	binary	['The', 'crook', 'that', 'warned', 'the', 'thief', 'fled the', 'town', 'the next', 'morning']	subject	incongruent	The crook fled the town?	main_clause	y	1	2.0595401200007473
41	binary	['The', 'dad', 'that', 'knew', 'the', 'chef', 'had a', 'son', 'with a', 'limp']	subject	incongruent	The chef had a son?	main_clause	y	0	2.8913241299997026
42	binary	['The', 'dessert', 'was', 'served', 'with', 'custard', 'and', 'fruit', 'then', 'there', 'was', 'coffee']	assorted	other	The coffee was before dessert?	other	n	1	1.772474785000668
43	binary	['The', 'hat', 'that was', 'worn', 'by the', 'boy', 'with a', 'jacket', 'was too', 'small', 'for the', 'man']	assorted	other	The hat was too small?	other	y	1	1.5912629989998095
44	binary	['The', 'guy', 'that', 'thanked', 'the', 'judge', 'left the', 'room', 'with a', 'smile']	subject	incongruent	The guy left the room?	main_clause	y	1	1.8908615249983995
45	ternary	['The', 'cook', 'that the', 'maid', 'hugged', 'had', 'a', 'tear', 'on', 'her', 'cheek']	object	congruent	The maid had a son?	main_clause	n	1	1.3227271430005203
46	ternary	['The', 'girl', 'that the', 'nerd', 'thanked', 'broke', 'the', 'vase', 'with', 'the', 'flowers']	object	incongruent	The nerd broke the vase?	main_clause	n	1	2.376357467001071
47	binary	['The', 'boss', 'that', 'mocked', 'the', 'clerk', 'had a', 'crush', 'on the', 'intern']	subject	congruent	The boss had a crush?	main_clause	y	1	1.9918904569985898
48	ternary	['The', 'whale', 'that the', 'shark', 'bit', 'won', 'the', 'fight', 'in', 'the', 'end']	object	incongruent	The whale bit the shark?	relative_clause	n	1	1.4902781149994553
49	binary	['The', 'cat', 'that', 'fought', 'the', 'dog', 'licked its', 'wounds', 'in the', 'corner']	subject	congruent	The dog fought the cat?	relative_clause	y	0	2.6267473999996582
50	binary	['The', 'piano', 'was well', 'played', 'by', 'the', 'old', 'lady', 'but', 'it', 'was', 'not', 'in', 'tune']	assorted	other	The piano was well played?	other	y	1	1.2732215220003127
51	ternary	['The', 'clerk', 'that the', 'boss', 'liked', 'had', 'a', 'desk', 'by', 'the', 'window']	object	congruent	The boss liked the clerk?	relative_clause	y	1	2.4765051699996548
52	ternary	['The', 'shelf', 'that the', 'piano', 'bumped', 'had', 'some', 'dust', 'on', 'its', 'top']	object	congruent	The shelf bumped the piano?	relative_clause	n	1	2.1748756310007593
53	binary	['The', 'chief', 'that', 'thanked', 'the', 'girl', 'was too', 'late', 'for the', 'bus']	subject	incongruent	The girl thanked the chief?	relative_clause	n	1	1.7570042549996288
54	binary	['The', 'book', 'that the', 'lady', 'with a', 'tattoo', 'had', 'written', 'was her', 'best', 'book', 'yet']	assorted	other	The lady wrote a book?	other	y	1	0.8695402780012955
55	ternary	['The', 'cop', 'that the', 'spy', 'met', 'wrote', 'a', 'book', 'about', 'the', 'case']	object	incongruent	The cop wrote a book?	main_clause	n	0	1.1392632749993936
56	ternary	['The', 'dean', 'that the', 'guard', 'heard', 'made', 'a', 'call', 'about', 'the', 'matter']	object	incongruent	The guard made a call?	main_clause	n	1	2.4590709849999257
57	binary	['The', 'boy', 'who', 'had', 'a', 'birthday', 'called', 'his', 'best', 'friend', 'for a', 'chat']	assorted	other	The boy called his best friend?	other	y	1	0.9724363410005026
58	binary	['The', 'boat', 'that', 'chased', 'the', 'yacht', 'made a', 'turn', 'at the', 'boathouse']	subject	congruent	The yacht chased the boat?	relative_clause	n	1	1.4060541779999767
59	binary	['The', 'niece', 'that', 'kissed', 'the', 'aunt', 'sang a', 'song', 'for the', 'guests']	subject	congruent	The niece sang a song?	main_clause	y	1	1.5568984159999673
60	ternary	['The', 'groom', 'that the', 'aunt', 'charmed', 'raised', 'a', 'toast', 'to', 'the', 'parents']	object	incongruent	The aunt raised a toast?	main_clause	n	1	1.0720229449998442
61	binary	['The', 'ring', 'that', 'was', 'sadly', 'lost', 'was', 'found', 'by the', 'fat', 'and', 'very', 'happy', 'priest']	assorted	other	The priest found the ring?	other	y	1	2.64341530800084
62	binary	['The', 'priest', 'that', 'paid', 'the', 'cook', 'signed the', 'check', 'at the', 'bank']	subject	congruent	The priest signed the check?	main_clause	y	1	0.969770043000608
63	binary	['The', 'dean', 'that', 'called', 'the', 'boy', 'had a', 'voice', 'full of', 'anger']	subject	congruent	The boy had a voice full of anger?	main_clause	n	1	1.290513435000321
64	binary	['The', 'nurse', 'that', 'blamed', 'the', 'coach', 'checked the', 'file', 'of the', 'gymnast']	subject	congruent	The coach checked the file?	main_clause	n	1	0.938275947000875
65	ternary	['The', 'sailor', 'that the', 'banker', 'pushed', 'hurt', 'his', 'foot', 'in', 'the', 'brawl']	object	incongruent	The banker pushed the sailor?	relative_clause	y	1	2.961200194000412
66	binary	['The', 'girl', 'and the', 'boy', 'that', 'owned', 'the', 'horse', 'had', 'mud', 'on their', 'clothes']	assorted	other	The horse was muddy?	other	n	1	1.23950295099894
67	binary	['The', 'maid', 'that', 'loved', 'the', 'chef', 'quit the', 'job', 'at the', 'house']	subject	incongruent	The maid loved the chef?	relative_clause	y	1	0.9697050799986755
68	binary	['The', 'man', 'was very', 'hungry', 'after the', 'meeting', 'so', 'had', 'lunch', 'early']	assorted	other	The man was hungry?	other	y	1	1.4562869479996152
69	binary	['The', 'man', 'who was', 'short', 'gave his', 'wife', 'some red', 'candles', 'for her', 'birthday']	assorted	other	The man was tall?	other	n	1	0.8042324239995651
70	ternary	['The', 'knight', 'that the', 'king', 'helped', 'sent', 'a', 'gift', 'from', 'his', 'castle']	object	congruent	The king helped the knight?	relative_clause	n	0	1.8416064899993216
71	binary	['The', 'girl', 'on', 'the', 'school', 'trip', 'saw a', 'frog', 'and', 'later', 'she', 'saw', 'a', 'mouse']	assorted	other	The girl saw a mouse first?	other	n	1	1.5578566989988758
72	binary	['The', 'owl', 'that', 'scared', 'the', 'bat', 'made a', 'loop', 'in the', 'air']	subject	incongruent	The bat scared the owl? 	relative_clause	n	1	1.188931008997315
73	ternary	['The', 'priest', 'that the', 'nun', 'thanked', 'left', 'the', 'church', 'in', 'a', 'hurry']	object	congruent	The priest left the church?	main_clause	y	1	2.175624848001462
