Trial	Beat	Sentence	Sentence_extraction	Congruency	Probe	Probe_clause	Response	Accuracy	RT
1	ternary	['The', 'truck', 'that the', 'car', 'bumped', 'had', 'a', 'man', 'at', 'the', 'wheel']	object	incongruent	The car bumped the truck?	relative_clause	n	0	8.390110299999947
2	binary	['The', 'shelf', 'that', 'bumped', 'the', 'piano', 'had some', 'dust', 'on its', 'top']	subject	incongruent	The shelf had some dust on its top?	main_clause	y	1	2.5928600010000764
3	binary	['The', 'girl', 'and the', 'boy', 'that', 'owned', 'the', 'horse', 'had', 'mud', 'on their', 'clothes']	assorted	other	The horse was muddy?	other	n	1	1.7079643910000186
4	binary	['The', 'cat', 'chased the', 'bird', 'but', 'it', 'flew', 'away', 'into the', 'sunset']	assorted	other	The cat caught the bird?	other	n	1	1.3222908980000057
5	ternary	['The', 'dancer', 'that the', 'guy', 'liked', 'was', 'a', 'chef', 'in', 'the', 'city']	object	congruent	The dancer was a chef?	main_clause	y	1	1.7069234460000189
6	ternary	['The', 'king', 'that the', 'guest', 'pleased', 'poured', 'the', 'wine', 'from', 'the', 'jug']	object	congruent	The guest pleased the king?	relative_clause	n	0	8.557254950000015
7	ternary	['The', 'priest', 'that the', 'nun', 'thanked', 'left', 'the', 'church', 'in', 'a', 'hurry']	object	incongruent	The priest left the church?	main_clause	y	1	2.593501919000005
8	binary	['The', 'job', 'that was', 'given', 'was', 'different', 'to', 'what', 'she', 'expected']	assorted	other	The job was as expected?	other	n	1	1.27216036599998
9	binary	['The', 'desk', 'was', 'new', 'but', 'dusty', 'and', 'covered', 'with old', 'books']	assorted	other	The desk was old?	other	n	1	2.241598232000001
10	binary	['The', 'car', 'that was', 'new', 'had', 'just', 'been', 'cleaned', 'by', 'the', 'old', 'lady']	assorted	other	The car was old?	other	n	1	1.0890541610000355
11	binary	['The', 'friend', 'that', 'teased', 'the', 'bride', 'told a', 'joke', 'about the', 'past']	subject	incongruent	The bride told a joke?	main_clause	n	1	1.9587386150000157
12	binary	['The', 'boss', 'that', 'mocked', 'the', 'clerk', 'had a', 'crush', 'on the', 'intern']	subject	congruent	The clerk had a crush?	main_clause	n	1	4.044213622000029
13	binary	['The', 'girl', 'on', 'the', 'school', 'trip', 'saw a', 'frog', 'and', 'later', 'she', 'saw', 'a', 'mouse']	assorted	other	The girl saw a frog?	other	y	1	1.1387025359999825
14	binary	['The', 'whale', 'that', 'bit', 'the', 'shark', 'won the', 'fight', 'in the', 'end']	subject	congruent	The whale bit the shark?	relative_clause	y	1	1.2561140269999669
15	binary	['The', 'dessert', 'was', 'served', 'with', 'custard', 'and', 'fruit', 'then', 'there', 'was', 'coffee']	assorted	other	The coffee was before dessert?	other	n	1	1.5405806229999826
16	binary	['The', 'cup', 'was', 'made', 'from green', 'plastic', 'and was', 'filled', 'with', 'juice']	assorted	other	The cup was made from plastic?	other	y	1	1.4407579890000761
17	ternary	['The', 'priest', 'that the', 'cook', 'paid', 'signed', 'the', 'check', 'at', 'the', 'bank']	object	congruent	The priest signed the check?	main_clause	y	1	3.7798189710000543
18	ternary	['The', 'dean', 'that the', 'guard', 'heard', 'made', 'a', 'call', 'about', 'the', 'matter']	object	incongruent	The dean made a call?	main_clause	y	1	1.55767567099997
19	ternary	['The', 'bug', 'that the', 'ant', 'attacked', 'was', 'as', 'big', 'as', 'a', 'coin']	object	incongruent	The ant was as big as a coin?	main_clause	n	1	2.640365566000014
20	binary	['The', 'man', 'that', 'phoned', 'the', 'nurse', 'left his', 'pills', 'at the', 'office']	subject	congruent	The man left the pills?	main_clause	y	1	1.2728167569999869
21	ternary	['The', 'clerk', 'that the', 'boss', 'liked', 'had', 'a', 'desk', 'by', 'the', 'window']	object	incongruent	The boss liked the clerk?	relative_clause	y	1	2.008664336000038
22	binary	['The', 'boat', 'that', 'chased', 'the', 'yacht', 'made a', 'turn', 'at the', 'boathouse']	subject	incongruent	The yacht chased the boat?	relative_clause	n	1	2.1248998600000277
23	binary	['The', 'apples', 'that', 'the', 'couple', 'bought', 'at the', 'market', 'were', 'red']	assorted	other	The couple bought green apples?	other	n	1	2.108738574999961
24	binary	['The', 'man', 'was very', 'hungry', 'after the', 'meeting', 'so', 'had', 'lunch', 'early']	assorted	other	The man was hungry?	other	y	1	1.0547822370000404
25	binary	['The', 'concert', 'started', 'later', 'than', 'what', 'the', 'lady', 'told the', 'traveler']	assorted	other	The concert started early?	other	n	1	1.9392206470000701
26	binary	['The', 'guest', 'that', 'kissed', 'the', 'host', 'brought a', 'cake', 'to the', 'party']	subject	incongruent	The guest brought a cake?	main_clause	y	1	1.2896290520000093
27	binary	['The', 'groom', 'that', 'charmed', 'the', 'aunt', 'raised a', 'toast', 'to the', 'parents']	subject	incongruent	The groom charmed the aunt?	relative_clause	y	1	1.4891391200000044
28	binary	['The', 'cook', 'that', 'hugged', 'the', 'maid', 'had a', 'tear', 'on her', 'cheek']	subject	incongruent	The maid had a son?	main_clause	n	1	1.6908297749999974
29	ternary	['The', 'rod', 'that the', 'pipe', 'bent', 'had', 'a', 'hole', 'in', 'the', 'middle']	object	incongruent	The pipe bent the rod?	relative_clause	n	0	2.609435370999904
30	ternary	['The', 'guy', 'that the', 'judge', 'thanked', 'left', 'the', 'room', 'with', 'a', 'smile']	object	congruent	The judge left the room?	main_clause	n	1	2.5925530360000266
31	ternary	['The', 'nurse', 'that the', 'coach', 'blamed', 'checked', 'the', 'file', 'of', 'the', 'gymnast']	object	congruent	The coach checked the file?	main_clause	n	1	3.7106382279999934
32	binary	['The', 'book', 'that the', 'lady', 'with a', 'tattoo', 'had', 'written', 'was her', 'best', 'book', 'yet']	assorted	other	The lady wrote a book?	other	y	1	1.3751689460000307
33	binary	['The', 'niece', 'that', 'kissed', 'the', 'aunt', 'sang a', 'song', 'for the', 'guests']	subject	incongruent	The aunt sang a song?	main_clause	n	1	1.4396879960000888
34	binary	['The', 'dean', 'that', 'called', 'the', 'boy', 'had a', 'voice', 'full of', 'anger']	subject	congruent	The dean called the boy?	relative_clause	y	1	2.944171234999999
35	ternary	['The', 'hat', 'that the', 'skirt', 'matched', 'had', 'a', 'bow', 'in', 'the', 'back']	object	incongruent	The skirt had a bow?	main_clause	n	1	2.125336219000019
36	binary	['The', 'wine', 'that was', 'fancy', 'was', 'kept', 'in the', 'cellar', 'for', 'nearly', 'ten', 'years', 'and five', 'months']	assorted	other	The wine was fancy?	other	y	1	1.2061710659999108
37	binary	['The', 'hat', 'that was', 'worn', 'by the', 'boy', 'with a', 'jacket', 'was too', 'small', 'for the', 'man']	assorted	other	The hat was too small?	other	y	1	1.3373853630000667
38	binary	['The', 'bum', 'that', 'scared', 'the', 'cop', 'crossed the', 'street', 'at the', 'light']	subject	congruent	The bum crossed the street?	main_clause	y	1	1.1396197650000204
39	binary	['The', 'desk', 'that', 'scratched', 'the', 'bed', 'was too', 'old', 'to be', 'moved']	subject	incongruent	The bed scratched the desk?	relative_clause	n	1	2.5259640380000974
40	binary	['The', 'maid', 'that', 'loved', 'the', 'chef', 'quit the', 'job', 'at the', 'house']	subject	incongruent	The chef loved the maid?	relative_clause	n	1	3.060898327000018
41	binary	['The', 'thief', 'that', 'saw', 'the', 'guard', 'had a', 'gun', 'in his', 'holster']	subject	congruent	The guard saw the thief?	relative_clause	n	1	2.4262646330000734
42	binary	['The', 'girl', 'that', 'pushed', 'the', 'nerd', 'broke the', 'vase', 'with the', 'flowers']	subject	congruent	The nerd broke the vase?	main_clause	n	1	1.356004220999921
43	ternary	['The', 'boy', 'that the', 'girl', 'helped', 'got', 'an', 'A', 'on', 'the', 'test']	object	incongruent	The boy helped the girl?	relative_clause	n	1	5.283475459999863
44	ternary	['The', 'fruit', 'that the', 'cake', 'squashed', 'made', 'a', 'mess', 'in', 'the', 'bag']	object	incongruent	The fruit squashed the cake?	relative_clause	n	1	3.376074864999964
45	ternary	['The', 'dad', 'that the', 'chef', 'knew', 'had', 'a', 'son', 'with', 'a', 'limp']	object	congruent	The dad had a son with a limp?	main_clause	y	1	4.362411161999944
46	binary	['The', 'piano', 'was well', 'played', 'by', 'the', 'old', 'lady', 'but', 'it', 'was', 'not', 'in', 'tune']	assorted	other	The piano was badly played?	other	n	1	1.3061772460000611
47	binary	['The', 'bloke', 'that', 'helped', 'the', 'mum', 'gave a', 'gift', 'to say', 'thanks']	subject	congruent	The bloke gave a gift?	main_clause	y	1	1.0050343870000233
48	ternary	['The', 'fox', 'that the', 'wolf', 'chased', 'hurt', 'its', 'paws', 'on', 'the', 'way']	object	incongruent	The fox hurt its paws?	main_clause	y	1	0.8524497089999841
49	binary	['The', 'colour', 'of the', 'house', 'was', 'brighter', 'than the', 'men', 'who travelled', 'expected']	assorted	other	The men travelled?	other	y	1	1.2899421309998615
50	binary	['The', 'scout', 'that', 'punched', 'the', 'coach', 'had a', 'fight', 'with a', 'manager']	subject	incongruent	The scout punched the coach?	relative_clause	y	1	1.189323929000011
51	binary	['The', 'car', 'that', 'pulled', 'the', 'truck', 'had a', 'scratch', 'on the', 'door']	subject	incongruent	The car pulled the truck?	relative_clause	y	1	0.8391255389999515
52	binary	['The', 'bike', 'that was', 'yellow', 'and', 'shiny', 'belonged', 'to', 'the', 'boy', 'with the', 'hat']	assorted	other	The bike was red?	other	n	1	1.0558904349998102
53	binary	['The', 'man', 'who was', 'short', 'gave his', 'wife', 'some red', 'candles', 'for her', 'birthday']	assorted	other	The man was short?	other	y	1	0.872372212000073
54	binary	['The', 'dog', 'that', 'barked', 'is very', 'big', 'and very', 'friendly', 'but', 'doesn’t', 'like', 'cats']	assorted	other	The dog is very big?	other	y	1	0.7885926369999652
55	binary	['The', 'owl', 'that', 'scared', 'the', 'bat', 'made a', 'loop', 'in the', 'air']	subject	incongruent	The owl made a loop?	main_clause	y	1	1.875059070000134
56	binary	['The', 'cat', 'that', 'fought', 'the', 'dog', 'licked its', 'wounds', 'in the', 'corner']	subject	congruent	The cat fought the dog?	relative_clause	y	1	0.9221158310001556
57	binary	['The', 'sailor', 'that', 'pushed', 'the', 'banker', 'hurt his', 'foot', 'in the', 'brawl']	subject	congruent	The banker hurt his foot?	main_clause	n	1	2.7600785529998575
58	binary	['The', 'tradie', 'that', 'thanked', 'the', 'man', 'left his', 'wallet', 'in the', 'car']	subject	congruent	The man thanked the tradie?	relative_clause	n	1	1.7568184570000085
59	binary	['The', 'box', 'was', 'made', 'from', 'wood', 'and was', 'full', 'of', 'things', 'that', 'shined']	assorted	other	The box was full of things?	other	y	1	1.0561722769998596
60	ternary	['The', 'cop', 'that the', 'spy', 'met', 'wrote', 'a', 'book', 'about', 'the', 'case']	object	incongruent	The cop met the spy?	relative_clause	y	0	1.791468784000017
61	binary	['The', 'boss', 'was', 'happy', 'to', 'see', 'the', 'work', 'that', 'the', 'two', 'girls', 'had', 'done']	assorted	other	The boss was happy?	other	y	1	0.8882180680000147
62	ternary	['The', 'chief', 'that the', 'girl', 'thanked', 'was', 'too', 'late', 'for', 'the', 'bus']	object	congruent	The girl thanked the chief?	relative_clause	n	0	1.1726490690000446
63	binary	['The', 'fish', 'was', 'caught', 'by the', 'girl', 'on the', 'boat', 'on a', 'Friday']	assorted	other	The fish was caught by the boy?	other	n	1	1.791124093999997
64	ternary	['The', 'knight', 'that the', 'king', 'helped', 'sent', 'a', 'gift', 'from', 'his', 'castle']	object	congruent	The king sent a gift?	main_clause	n	1	1.1396116500000062
65	ternary	['The', 'prince', 'that the', 'girl', 'helped', 'had', 'a', 'head', 'of', 'blonde', 'hair']	object	incongruent	The girl had blonde hair?	main_clause	n	1	3.7629323469998326
66	ternary	['The', 'crook', 'that the', 'thief', 'warned', 'fled', 'the', 'town', 'the', 'next', 'morning']	object	congruent	The thief warned the crook?	relative_clause	y	1	2.7429294780001783
67	ternary	['The', 'kid', 'that the', 'dad', 'followed', 'had', 'some', 'mud', 'on', 'his', 'shoes']	object	congruent	The kid followed the dad?	relative_clause	n	1	1.9245315000000573
68	ternary	['The', 'thug', 'that the', 'man', 'saw', 'had', 'a', 'hat', 'on', 'his', 'head']	object	congruent	The thug saw the man?	relative_clause	y	0	2.4764069079999445
69	binary	['The', 'ring', 'that', 'was', 'sadly', 'lost', 'was', 'found', 'by the', 'fat', 'and', 'very', 'happy', 'priest']	assorted	other	The priest was sad?	other	n	1	1.0875768010000684
70	binary	['The', 'nun', 'that', 'blessed', 'the', 'monk', 'lit a', 'candle', 'on the', 'table']	subject	congruent	The monk blessed the nun?	relative_clause	n	1	1.3404735750000327
71	binary	['The', 'girl', 'kicked the', 'ball', 'into the', 'window', 'but it', 'did', 'not', 'break']	assorted	other	The girl kicked the ball?	other	y	1	1.038190966000002
72	ternary	['The', 'count', 'that the', 'queen', 'knew', 'owned', 'a', 'castle', 'by', 'the', 'lake']	object	congruent	The count knew the queen?	relative_clause	n	1	2.6094723249998424
73	binary	['The', 'boy', 'who', 'had', 'a', 'birthday', 'called', 'his', 'best', 'friend', 'for a', 'chat']	assorted	other	The friend called the boy?	other	n	1	2.9097419910001463
